XRay (ID 01) / Kristallwinkel θ_c	XRay (ID 01) / Impulse Imp
θ_c/°	Imp/# / s

5.0	6
5.1	6
5.2	8
5.3	5
5.4	8
5.5	8
5.6	6
5.7	8
5.8	9
5.9	8
6.0	6
6.1	11
6.2	7
6.3	13
6.4	16
6.5	25
6.6	37
6.7	40
6.8	55
6.9	52
7.0	68
7.1	67
7.2	71
7.3	87
7.4	86
