XRay (ID 01) / Kristallwinkel θ_c	XRay (ID 01) / Impulse Imp
θ_c/°	Imp/# / s

10.5	1
10.6	0
10.7	0
10.8	0
10.9	1
11.0	1
11.1	0
11.2	1
11.3	1
11.4	1
11.5	0
11.6	0
11.7	1
11.8	1
11.9	9
12.0	5
12.1	14
12.2	17
12.3	23
12.4	25
12.5	25
12.6	41
12.7	37
12.8	49
12.9	43
