XRay (ID 01) / Kristallwinkel θ_c	XRay (ID 01) / Impulse Imp
θ_c/°	Imp/# / s

6.5	6
6.6	4
6.7	3
6.8	6
6.9	5
7.0	3
7.1	4
7.2	0
7.3	2
7.4	3
7.5	4
7.6	4
7.7	4
7.8	8
7.9	15
8.0	18
8.1	27
8.2	31
8.3	38
8.4	40
8.5	46
8.6	53
8.7	62
8.8	66
8.9	65
9.0	68
9.1	79
9.2	84
9.3	88
9.4	90
