XRay (ID 01) / Kristallwinkel θ_c	XRay (ID 01) / Impulse Imp
θ_c/°	Imp/# / s

4.9	6
5.0	8
5.1	11
5.2	9
5.3	11
5.4	11
5.5	10
5.6	10
5.7	13
5.8	21
5.9	25
6.0	38
6.1	43
6.2	52
6.3	66
6.4	69
6.5	62
6.6	80
6.7	85
6.8	96
6.9	97
7.0	110
7.1	95
7.2	117
7.3	118
7.4	123
