XRay (ID 01) / Kristallwinkel θ_c	XRay (ID 01) / Impulse Imp
θ_c/°	Imp/# / s

5.5	5
5.6	5
5.7	7
5.8	8
5.9	2
6.0	5
6.1	7
6.2	7
6.3	6
6.4	7
6.5	4
6.6	2
6.7	9
6.8	10
6.9	9
7.0	11
7.1	19
7.2	18
7.3	26
7.4	40
7.5	42
7.6	48
7.7	54
7.8	57
7.9	66
8.0	65
8.1	74
